Folder: vscode-marketpalce/data

File: tga-image-preview.csv
date,version,lastUpdated,install,averagerating,ratingcount,trendingdaily,updateCount,weightedRating,downloadCount
2024-11-26,1.0.0,2022-04-17T17:01:08+00:00,6968,5,2,0,170,4.4032,79
2024-11-26,1.0.0,2022-04-17T17:01:08+00:00,6969,5,2,0,170,4.4032,79
2024-11-27,1.0.0,2022-04-17T17:01:08+00:00,6978,5,2,0.0143369,170,4.4032,79
2024-11-28,1.0.0,2022-04-17T17:01:08+00:00,7015,5,4,0,23403,4.4032,79
2024-11-29,1.0.0,2022-04-17T17:01:08+00:00,7024,4,2,0,2050,4.4032,80
2024-11-30,1.0.0,2022-04-17T17:01:08+00:00,7031,4,2,0,2050,4.4032,80
2024-12-01,1.0.0,2022-04-17T17:01:08+00:00,7035,4,2,0,2050,4.4032,80
2024-12-02,1.0.0,2022-04-17T17:01:08+00:00,7046,4,2,0,2050,4.4032,80
2024-12-03,1.0.0,2022-04-17T17:01:08+00:00,7054,5,5,0,8352,4.4032,80
2024-12-04,1.0.0,2022-04-17T17:01:08+00:00,7062,5,5,0,8354,4.4032,83
2024-12-05,1.0.0,2022-04-17T17:01:08+00:00,7089,4,2,0,2052,4.4032,83